<Bundle xmlns="http://hl7.org/fhir">
	<type value="transaction"/>
	<entry>
		<fullUrl value="urn:uuid:bb73165c-c7b9-4342-8e28-531f07fa7735"/>
		<resource>
			<Organization xmlns="http://hl7.org/fhir">
				<meta>
					<tag>
						<system value="http://highmed.org/fhir/CodeSystem/read-access-tag"/>
						<code value="ALL"/>
					</tag>	
				</meta>
				<extension url="http://highmed.org/fhir/StructureDefinition/extension-certificate-thumbprint">
					<valueString value="TODO"/>
				</extension>
				<identifier>
					<system value="http://highmed.org/sid/organization-identifier"/>
					<value value="Test_TTP"/>
				</identifier>
				<active value="true"/>
				<name value="Test TTP"/>
				<endpoint>
					<reference value="urn:uuid:169e782c-2673-40e9-8b30-f1dc46dba984"/>
					<type value="Endpoint"/>
				</endpoint>
			</Organization>
		</resource>
		<request>
			<method value="POST"/>
			<url value="Organization"/>
			<ifNoneExist value="identifier=http://highmed.org/sid/organization-identifier|Test_TTP"/>
		</request>
	</entry>
	<entry>
		<fullUrl value="urn:uuid:cf62edc2-cc5d-43ed-ac0e-caf09f7326c3"/>
		<resource>
			<Organization xmlns="http://hl7.org/fhir">
				<meta>
					<tag>
						<system value="http://highmed.org/fhir/CodeSystem/read-access-tag"/>
						<code value="ALL"/>
					</tag>	
				</meta>
				<extension url="http://highmed.org/fhir/StructureDefinition/extension-certificate-thumbprint">
					<valueString value="TODO"/>
				</extension>
				<identifier>
					<system value="http://highmed.org/sid/organization-identifier"/>
					<value value="Test_MeDIC_1"/>
				</identifier>
				<active value="true"/>
				<name value="Test MeDIC 1"/>
			</Organization>
		</resource>
		<request>
			<method value="POST"/>
			<url value="Organization"/>
			<ifNoneExist value="identifier=http://highmed.org/sid/organization-identifier|Test_MeDIC_1"/>
		</request>
	</entry>
	<entry>
		<fullUrl value="urn:uuid:169e782c-2673-40e9-8b30-f1dc46dba984"/>
		<resource>
			<Endpoint xmlns="http://hl7.org/fhir">
				<meta>
					<tag>
						<system value="http://highmed.org/fhir/CodeSystem/read-access-tag"/>
						<code value="ALL"/>
					</tag>	
				</meta>
				<identifier>
					<system value="http://highmed.org/sid/endpoint-identifier"/>
					<value value="Test_TTP_Endpoint"/>
				</identifier>
				<status value="active"/>
				<connectionType>
					<system value="http://terminology.hl7.org/CodeSystem/endpoint-connection-type"/>
					<code value="hl7-fhir-rest"/>
				</connectionType>
				<managingOrganization>
					<reference value="urn:uuid:bb73165c-c7b9-4342-8e28-531f07fa7735"/>
					<type value="Organization"/>
				</managingOrganization>
				<payloadType>
					<coding>
						<system value="http://hl7.org/fhir/resource-types"/>
						<code value="Task"/>
					</coding>
				</payloadType>
				<address value="https://ttp-docker/fhir"/>
			</Endpoint>
		</resource>
		<request>
			<method value="POST"/>
			<url value="Endpoint"/>
			<ifNoneExist value="identifier=http://highmed.org/sid/endpoint-identifier|Test_TTP_Endpoint"/>
		</request>
	</entry>
</Bundle>